File: data/small/Raman/sio2-gr-f16.txt
-163.473	723
-157.205	723
-150.94	723
-144.68	724
-138.423	725
-132.171	726
-125.923	724
-119.679	726
-113.439	725
-107.203	726
-100.971	723
-94.7437	724
-88.52	724
-82.3004	724
-76.0849	724
-69.8734	723
-63.666	724
-57.4626	723
-51.2633	722
-45.068	723
-38.8768	723
-32.6897	724
-26.5066	724
-20.3275	725
-14.1524	724
-7.98144	725
-1.81446	724
4.34848	737
10.5074	725
16.6623	725
22.8132	725
28.96	725
35.1029	724
41.2417	727
47.3765	726
53.5073	724
59.6341	724
65.7569	724
71.8757	731
77.9905	788
84.1014	905
90.2082	975
96.311	980
102.41	943
108.505	925
114.596	909
120.683	907
126.766	931
132.844	1124
138.919	975
144.991	936
151.058	908
157.121	896
163.18	893
169.235	922
175.286	1034
181.334	1151
187.377	959
193.417	914
199.452	910
205.484	1132
211.511	1010
217.535	890
223.555	894
229.57	922
235.582	913
241.59	905
247.595	909
253.595	913
259.591	926
265.583	930
271.572	921
277.556	951
283.537	1105
289.514	1054
295.487	969
301.456	989
307.421	1012
313.382	955
319.339	953
325.293	1001
331.242	987
337.188	944
343.13	919
349.068	901
355.002	884
360.932	903
366.859	913
372.781	897
378.7	888
384.615	894
390.526	881
396.433	871
402.336	876
408.236	869
414.131	888
420.023	903
425.911	920
431.795	915
437.676	896
443.552	971
449.425	887
455.294	859
461.159	849
467.02	949
472.878	1018
478.731	868
484.581	866
490.427	897
496.27	913
502.108	983
507.943	1143
513.774	1695
519.601	5785
525.425	7859
531.244	1966
537.06	1171
542.872	1014
548.681	944
554.485	932
560.286	1042
566.083	1064
571.876	945
577.666	990
583.452	1503
589.234	1977
595.012	1373
600.787	1051
606.558	924
612.325	887
618.088	913
623.848	898
629.604	895
635.356	875
641.105	911
646.85	921
652.591	881
658.328	889
664.062	872
669.792	878
675.518	873
681.241	880
686.96	883
692.675	913
698.387	872
704.095	890
709.799	898
715.5	925
721.196	1025
726.89	1599
732.579	2787
738.265	3693
743.947	2218
749.626	1707
755.301	1085
760.972	953
766.64	1044
772.304	1332
777.964	1096
783.621	921
789.274	921
794.923	918
800.569	909
806.211	905
811.85	904
817.485	950
823.116	904
828.744	892
834.368	894
839.988	913
845.605	920
851.219	894
856.828	878
862.435	880
868.037	861
873.636	864
879.231	869
884.823	869
890.411	880
895.996	875
901.577	866
907.154	875
912.728	883
918.299	898
923.865	919
929.429	964
934.988	1043
940.545	1179
946.097	1267
951.646	1392
957.192	1399
962.734	1489
968.272	1938
973.807	1501
979.338	1232
984.866	1175
990.39	1155
995.911	1070
1001.43	995
1006.94	956
1012.45	930
1017.96	938
1023.46	936
1028.96	933
1034.46	926
1039.95	909
1045.44	912
1050.93	999
1056.41	1102
1061.89	1168
1067.36	1253
1072.83	1216
1078.3	1049
1083.77	939
1089.23	925
1094.69	943
1100.14	929
1105.59	921
1111.04	932
1116.48	951
1121.92	973
1127.36	1026
1132.8	1048
1138.23	1106
1143.65	1135
1149.08	1059
1154.5	1019
1159.91	1024
1165.33	1036
1170.74	1064
1176.14	1082
1181.55	1148
1186.95	1300
1192.34	1576
1197.73	2853
1203.12	1802
1208.51	1159
1213.89	1069
1219.27	1031
1224.65	1012
1230.02	1025
1235.39	1012
1240.75	993
1246.12	1020
1251.47	1049
1256.83	1090
1262.18	1071
1267.53	1070
1272.88	1073
1278.22	1141
1283.56	1236
1288.89	1233
1294.22	1273
1299.55	1509
1304.88	1865
1310.2	2578
1315.52	3455
1320.83	3676
1326.15	3522
1331.45	3381
1336.76	3045
1342.06	3036
1347.36	2927
1352.65	2940
1357.95	3431
1363.24	4858
1368.52	5323
1373.8	3107
1379.08	2408
1384.36	1831
1389.63	1526
1394.9	1395
1400.16	1286
1405.43	1360
1410.68	1457
1415.94	1417
1421.19	1356
1426.44	1343
1431.69	1379
1436.93	1366
1442.17	1433
1447.41	1533
1452.64	1725
1457.87	2261
1463.09	3421
1468.32	3287
1473.54	2532
1478.75	2974
1483.97	4342
1489.18	5453
1494.38	3502
1499.59	1942
1504.79	1671
1509.98	1657
1515.18	1949
1520.37	2972
1525.56	4878
1530.74	6697
1535.92	7194
1541.1	7040
1546.27	5256
1551.44	3998
1556.61	3539
1561.78	2855
1566.94	2357
1572.1	1850
1577.25	1791
1582.41	1739
1587.55	1570
1592.7	1595
1597.84	1829
1602.98	1783
1608.12	1606
1613.25	1648
1618.38	1887
1623.51	1920
1628.63	1682
1633.75	1747
1638.87	2013
1643.98	1790
1649.1	1450
1654.2	1301
1659.31	1292
1664.41	1281
1669.51	1187
1674.6	1089
1679.7	1053
1684.78	1016
1689.87	996
1694.95	997
1700.03	994
1705.11	1019
1710.18	1005
1715.25	1013
1720.32	984
1725.38	964
1730.45	974
1735.5	967
1740.56	962
1745.61	947
1750.66	962
1755.7	940
1760.75	923
1765.79	928
1770.82	940
1775.86	938
1780.89	950
1785.91	962
1790.94	953
1795.96	949
1800.98	952
1805.99	962
1811	944
1816.01	943
1821.02	946
1826.02	925
1831.02	920
1836.02	912
1841.01	941
1846	929
1850.99	923
1855.97	915
1860.95	911
1865.93	914
1870.91	913
1875.88	926
1880.85	938
1885.81	939
1890.78	955
1895.74	955
1900.69	989
1905.65	988
1910.6	979
1915.55	1000
1920.49	983
1925.43	1028
1930.37	1034
1935.31	1039
1940.24	990
1945.17	972
1950.1	980
1955.03	981
1959.95	967
1964.86	959
1969.78	944
1974.69	927
1979.6	940
1984.51	935
1989.41	953
1994.31	946
1999.21	943
2004.1	939
2009	947
2013.89	938
2018.77	954
2023.65	942
2028.53	954
2033.41	955
2038.28	975
2043.16	1010
2048.02	1030
2052.89	1035
2057.75	1018
2062.61	1034
2067.47	1028
2072.32	1046
2077.17	1040
2082.02	1058
2086.86	1080
2091.71	1109
2096.55	1118
2101.38	1132
2106.22	1160
2111.05	1149
2115.87	1176
2120.7	1138
2125.52	1132
2130.34	1097
2135.15	1073
2139.97	1053
2144.78	1060
2149.59	1024
2154.39	999
2159.19	1012
2163.99	997
2168.79	984
2173.58	975
2178.37	1002
2183.16	982
2187.94	989
2192.72	988
2197.5	1019
2202.28	1051
2207.05	1056
2211.82	1086
2216.59	1102
2221.35	1149
2226.12	1143
2230.87	1121
2235.63	1094
2240.38	1059
2245.13	1019
2249.88	1026
2254.63	1063
2259.37	1124
2264.11	1164
2268.85	1225
2273.58	1275
2278.31	1314
2283.04	1294
2287.76	1270
2292.49	1254
2297.21	1232
2301.92	1195
2306.64	1185
2311.35	1122
2316.06	1111
2320.76	1048
2325.47	1047
2330.17	1049
2334.86	1029
2339.56	1024
2344.25	1001
2348.94	1007
2353.63	1003
2358.31	997
2362.99	1004
2367.67	992
2372.34	1012
2377.02	1019
2381.69	1008
2386.35	1023
2391.02	1029
2395.68	1041
2400.34	1044
2404.99	1060
2409.65	1045
2414.3	1045
2418.95	1046
2423.59	1059
2428.24	1068
2432.87	1084
2437.51	1095
2442.15	1055
2446.78	1096
2451.41	1121
2456.03	1117
2460.66	1096
2465.28	1098
2469.9	1109
2474.51	1109
2479.13	1124
2483.74	1127
2488.34	1155
2492.95	1144
2497.55	1144
2502.15	1124
2506.75	1115
2511.34	1138
2515.93	1125
2520.52	1095
2525.11	1059
2529.69	1056
2534.27	1083
2538.85	1083
2543.42	1058
2548	1065
2552.57	1074
2557.13	1059
2561.7	1064
2566.26	1051
2570.82	1037
2575.38	1047
2579.93	1064
2584.48	1068
2589.03	1088
2593.58	1105
2598.12	1106
2602.66	1121
2607.2	1143
2611.74	1164
2616.27	1149
2620.8	1160
2625.33	1209
2629.86	1230
2634.38	1263
2638.9	1260
2643.42	1299
2647.93	1344
2652.44	1388
2656.95	1370
2661.46	1473
2665.97	1468
2670.47	1519
2674.97	1563
2679.46	1634
2683.96	1670
2688.45	1724
2692.94	1727
2697.42	1665
2701.91	1585
2706.39	1503
2710.87	1418
2715.34	1368
2719.82	1336
2724.29	1374
2728.76	1338
2733.22	1322
2737.69	1318
2742.15	1227
2746.61	1231
2751.06	1195
2755.52	1186
2759.97	1183
2764.41	1233
2768.86	1225
2773.3	1247
2777.74	1280
2782.18	1250
2786.62	1261
2791.05	1281
2795.48	1272
2799.91	1279
2804.33	1289
2808.76	1294
2813.18	1284
2817.59	1234
2822.01	1236
2826.42	1248
2830.83	1264
2835.24	1310
2839.64	1353
2844.05	1371
2848.45	1406
2852.84	1422
2857.24	1433
2861.63	1423
2866.02	1399
2870.41	1414
2874.8	1438
2879.18	1419
2883.56	1418
2887.94	1425
2892.31	1491
2896.68	1540
2901.05	1580
2905.42	1602
2909.79	1571
2914.15	1506
2918.51	1457
2922.87	1399
2927.22	1372
2931.58	1312
2935.93	1311
2940.28	1290
2944.62	1314
2948.96	1312
2953.3	1299
2957.64	1266
2961.98	1283
2966.31	1305
2970.64	1299
2974.97	1290
2979.3	1277
2983.62	1254
2987.94	1232
2992.26	1241
2996.58	1246
3000.89	1239
3005.2	1275
3009.51	1278
3013.82	1287
3018.12	1268
3022.43	1293
3026.72	1283
3031.02	1255
3035.32	1243
3039.61	1222
3043.9	1231
3048.19	1229
3052.47	1275
3056.75	1291
3061.03	1347
3065.31	1406
3069.59	1434
3073.86	1458
3078.13	1461
3082.4	1448
3086.66	1413
3090.93	1364
3095.19	1301
3099.45	1254
3103.7	1224
3107.96	1188
3112.21	1176
3116.46	1136
3120.7	1145
3124.95	1110
3129.19	1104
3133.43	1088
3137.67	1066
3141.9	1080
3146.14	1068
3150.37	1063
3154.59	1063
3158.82	1057
3163.04	1049
3167.26	1061
3171.48	1034
3175.7	1041
3179.91	1044
3184.12	1042
3188.33	1035
3192.54	1022
3196.74	1031
3200.95	1028
3205.15	1021
3209.34	1024
3213.54	1027
3217.73	1030
3221.92	1016
3226.11	1022
3230.3	1030
3234.48	1026
3238.66	1043
3242.84	1027
3247.02	1041
3251.19	1062
3255.36	1046
3259.53	1041
3263.7	1038
3267.87	1023
3272.03	1013
3276.19	1016
3280.35	1014
3284.5	1022
3288.66	1013
3292.81	1008
3296.96	999
3301.1	994
3305.25	995
3309.39	990
3313.53	986
3317.67	995
3321.8	999
3325.94	986
3330.07	984
3334.2	993
3338.32	982
3342.45	995
3346.57	985
3350.69	990
3354.81	995
3358.92	1008
3363.03	1000
3367.14	995
3371.25	1001
3375.36	999
3379.46	1003
3383.56	1007
3387.66	1009
3391.76	985
3395.86	1012
3399.95	992
3404.04	1005
3408.13	1031
3412.21	1007
3416.3	1001
3420.38	991
3424.46	1006
3428.53	996
3432.61	1000
3436.68	1021
3440.75	1011
3444.82	1016
3448.88	1015
3452.95	1010
3457.01	1004
3461.07	1021
3465.13	1022
3469.18	1022
3473.23	1024
3477.28	1013
3481.33	1008
3485.38	1028
3489.42	998
3493.46	994
3497.5	1018
3501.54	1007
3505.58	1007
3509.61	1006
3513.64	1012
3517.67	1003
3521.69	1001
3525.72	1002
3529.74	986
3533.76	999
3537.78	1005
3541.79	1007
3545.8	1017
3549.82	1004
3553.82	1002
3557.83	1001
3561.84	1010
3565.84	1012
3569.84	1017
3573.84	1015
3577.83	1023
3581.83	1029
3585.82	1028
3589.81	1011
3593.79	1027
3597.78	1052
3601.76	1015
3605.74	1031
3609.72	1024
3613.7	1018
3617.67	1042
3621.65	1031
3625.62	1046
3629.58	1058
3633.55	1044
3637.51	1044
3641.47	1027
3645.43	1026
3649.39	1027
3653.35	1024
3657.3	1036
3661.25	1019
3665.2	1018
3669.15	1018
3673.09	1025
3677.03	1026
3680.97	1019
3684.91	1014
3688.85	1023
3692.78	1012
3696.71	1023
3700.64	1022
3704.57	1028
3708.5	1017
3712.42	1015
3716.34	1011
3720.26	1007
3724.18	995
3728.09	1024
3732.01	1002
3735.92	992
3739.83	1004
3743.73	1011
3747.64	1021
3751.54	1022
3755.44	1014
3759.34	1011
3763.24	1031
3767.13	1021
3771.02	1013
3774.91	1002
3778.8	1022
3782.69	1022
3784.63	1026