File: data/small/Raman/sio2-f16.txt
-163.473	724
-157.205	725
-150.94	724
-144.68	725
-138.423	726
-132.171	724
-125.923	723
-119.679	725
-113.439	723
-107.203	725
-100.971	724
-94.7437	725
-88.52	725
-82.3004	725
-76.0849	725
-69.8734	724
-63.666	724
-57.4626	724
-51.2633	725
-45.068	724
-38.8768	727
-32.6897	723
-26.5066	726
-20.3275	726
-14.1524	724
-7.98144	723
-1.81446	728
4.34848	774
10.5074	730
16.6623	725
22.8132	726
28.96	723
35.1029	727
41.2417	725
47.3765	724
53.5073	725
59.6341	726
65.7569	729
71.8757	759
77.9905	1084
84.1014	1790
90.2082	2176
96.311	2213
102.41	2124
108.505	1966
114.596	1858
120.683	1744
126.766	1747
132.844	1923
138.919	1778
144.991	1693
151.058	1669
157.121	1616
163.18	1595
169.235	1652
175.286	1961
181.334	2104
187.377	1684
193.417	1524
199.452	1596
205.484	1917
211.511	1683
217.535	1528
223.555	1550
229.57	1570
235.582	1600
241.59	1618
247.595	1649
253.595	1654
259.591	1623
265.583	1674
271.572	1694
277.556	1793
283.537	2031
289.514	1980
295.487	1934
301.456	2007
307.421	2067
313.382	1881
319.339	1794
325.293	1830
331.242	1758
337.188	1636
343.13	1557
349.068	1524
355.002	1507
360.932	1477
366.859	1465
372.781	1474
378.7	1442
384.615	1466
390.526	1395
396.433	1368
402.336	1363
408.236	1365
414.131	1382
420.023	1389
425.911	1458
431.795	1403
437.676	1393
443.552	1407
449.425	1303
455.294	1247
461.159	1208
467.02	1426
472.878	1535
478.731	1295
484.581	1289
490.427	1402
496.27	1552
502.108	1817
507.943	2492
513.774	5357
519.601	25610
525.425	34406
531.244	7630
537.06	3205
542.872	2214
548.681	1857
554.485	1625
560.286	1641
566.083	1569
571.876	1488
577.666	1593
583.452	2387
589.234	3017
595.012	2192
600.787	1596
606.558	1373
612.325	1377
618.088	1399
623.848	1377
629.604	1310
635.356	1262
641.105	1272
646.85	1273
652.591	1232
658.328	1245
664.062	1249
669.792	1265
675.518	1253
681.241	1248
686.96	1227
692.675	1245
698.387	1204
704.095	1198
709.799	1232
715.5	1339
721.196	1636
726.89	2570
732.579	4319
738.265	5368
743.947	3073
749.626	2023
755.301	1468
760.972	1364
766.64	1495
772.304	1835
777.964	1435
783.621	1257
789.274	1221
794.923	1222
800.569	1228
806.211	1232
811.85	1259
817.485	1346
823.116	1226
828.744	1196
834.368	1245
839.988	1272
845.605	1256
851.219	1179
856.828	1173
862.435	1177
868.037	1146
873.636	1155
879.231	1156
884.823	1171
890.411	1142
895.996	1166
901.577	1176
907.154	1214
912.728	1203
918.299	1230
923.865	1288
929.429	1447
934.988	1789
940.545	2250
946.097	2491
951.646	2543
957.192	2566
962.734	2870
968.272	3247
973.807	2745
979.338	2398
984.866	2372
990.39	2167
995.911	1794
1001.43	1532
1006.94	1434
1012.45	1347
1017.96	1312
1023.46	1290
1028.96	1244
1034.46	1185
1039.95	1145
1045.44	1143
1050.93	1230
1056.41	1312
1061.89	1357
1067.36	1468
1072.83	1431
1078.3	1259
1083.77	1125
1089.23	1102
1094.69	1103
1100.14	1073
1105.59	1088
1111.04	1093
1116.48	1136
1121.92	1199
1127.36	1252
1132.8	1272
1138.23	1338
1143.65	1367
1149.08	1298
1154.5	1239
1159.91	1211
1165.33	1229
1170.74	1283
1176.14	1284
1181.55	1378
1186.95	1560
1192.34	2242
1197.73	3185
1203.12	2041
1208.51	1371
1213.89	1261
1219.27	1229
1224.65	1212
1230.02	1176
1235.39	1153
1240.75	1140
1246.12	1184
1251.47	1207
1256.83	1242
1262.18	1240
1267.53	1224
1272.88	1282
1278.22	1356
1283.56	1432
1288.89	1458
1294.22	1512
1299.55	1770
1304.88	2211
1310.2	3052
1315.52	4037
1320.83	3815
1326.15	3194
1331.45	2997
1336.76	2885
1342.06	2894
1347.36	2864
1352.65	2763
1357.95	2994
1363.24	3419
1368.52	3252
1373.8	2387
1379.08	2053
1384.36	1753
1389.63	1578
1394.9	1468
1400.16	1511
1405.43	1566
1410.68	1613
1415.94	1536
1421.19	1473
1426.44	1476
1431.69	1550
1436.93	1572
1442.17	1657
1447.41	1787
1452.64	2094
1457.87	2757
1463.09	3414
1468.32	3115
1473.54	2781
1478.75	3103
1483.97	4044
1489.18	4389
1494.38	2867
1499.59	1974
1504.79	1883
1509.98	2020
1515.18	2512
1520.37	3418
1525.56	4388
1530.74	4885
1535.92	4731
1541.1	4178
1546.27	3428
1551.44	2959
1556.61	2581
1561.78	2248
1566.94	1948
1572.1	1784
1577.25	1663
1582.41	1546
1587.55	1437
1592.7	1409
1597.84	1412
1602.98	1449
1608.12	1551
1613.25	1639
1618.38	1784
1623.51	1734
1628.63	1747
1633.75	1821
1638.87	1807
1643.98	1652
1649.1	1443
1654.2	1355
1659.31	1312
1664.41	1250
1669.51	1209
1674.6	1139
1679.7	1091
1684.78	1075
1689.87	1094
1694.95	1083
1700.03	1082
1705.11	1050
1710.18	1063
1715.25	1049
1720.32	1027
1725.38	1011
1730.45	1007
1735.5	1022
1740.56	1005
1745.61	1013
1750.66	989
1755.7	994
1760.75	977
1765.79	987
1770.82	989
1775.86	998
1780.89	998
1785.91	1016
1790.94	989
1795.96	983
1800.98	988
1805.99	1014
1811	1000
1816.01	989
1821.02	970
1826.02	960
1831.02	966
1836.02	965
1841.01	968
1846	963
1850.99	953
1855.97	950
1860.95	961
1865.93	953
1870.91	956
1875.88	982
1880.85	955
1885.81	973
1890.78	977
1895.74	996
1900.69	992
1905.65	1003
1910.6	1012
1915.55	1004
1920.49	1002
1925.43	1028
1930.37	1023
1935.31	1016
1940.24	1013
1945.17	992
1950.1	978
1955.03	984
1959.95	976
1964.86	960
1969.78	967
1974.69	959
1979.6	951
1984.51	946
1989.41	960
1994.31	947
1999.21	952
2004.1	955
2009	950
2013.89	963
2018.77	965
2023.65	964
2028.53	977
2033.41	975
2038.28	995
2043.16	993
2048.02	1019
2052.89	1018
2057.75	1000
2062.61	1013
2067.47	1009
2072.32	1016
2077.17	1023
2082.02	1045
2086.86	1042
2091.71	1044
2096.55	1034
2101.38	1055
2106.22	1046
2111.05	1080
2115.87	1079
2120.7	1046
2125.52	1026
2130.34	1008
2135.15	1001
2139.97	1015
2144.78	991
2149.59	1009
2154.39	987
2159.19	968
2163.99	985
2168.79	960
2173.58	962
2178.37	962
2183.16	972
2187.94	960
2192.72	978
2197.5	988
2202.28	988
2207.05	996
2211.82	1018
2216.59	1003
2221.35	1043
2226.12	1028
2230.87	1020
2235.63	1001
2240.38	996
2245.13	998
2249.88	996
2254.63	1021
2259.37	1036
2264.11	1059
2268.85	1076
2273.58	1088
2278.31	1123
2283.04	1122
2287.76	1102
2292.49	1112
2297.21	1086
2301.92	1083
2306.64	1051
2311.35	1018
2316.06	996
2320.76	994
2325.47	992
2330.17	976
2334.86	970
2339.56	947
2344.25	945
2348.94	968
2353.63	956
2358.31	958
2362.99	963
2367.67	960
2372.34	967
2377.02	971
2381.69	979
2386.35	991
2391.02	980
2395.68	992
2400.34	993
2404.99	979
2409.65	985
2414.3	988
2418.95	991
2423.59	1003
2428.24	992
2432.87	1004
2437.51	996
2442.15	1007
2446.78	1001
2451.41	997
2456.03	1023
2460.66	1019
2465.28	1003
2469.9	999
2474.51	1020
2479.13	1020
2483.74	1020
2488.34	1011
2492.95	1029
2497.55	1014
2502.15	1014
2506.75	1020
2511.34	1020
2515.93	1030
2520.52	987
2525.11	972
2529.69	987
2534.27	976
2538.85	967
2543.42	986
2548	980
2552.57	960
2557.13	986
2561.7	975
2566.26	977
2570.82	982
2575.38	971
2579.93	977
2584.48	979
2589.03	982
2593.58	1007
2598.12	996
2602.66	1012
2607.2	1012
2611.74	1035
2616.27	1051
2620.8	1035
2625.33	1037
2629.86	1063
2634.38	1079
2638.9	1086
2643.42	1090
2647.93	1104
2652.44	1109
2656.95	1099
2661.46	1136
2665.97	1113
2670.47	1119
2674.97	1084
2679.46	1095
2683.96	1108
2688.45	1116
2692.94	1133
2697.42	1089
2701.91	1088
2706.39	1078
2710.87	1079
2715.34	1088
2719.82	1101
2724.29	1130
2728.76	1115
2733.22	1070
2737.69	1105
2742.15	1061
2746.61	1061
2751.06	1045
2755.52	1048
2759.97	1066
2764.41	1057
2768.86	1045
2773.3	1075
2777.74	1082
2782.18	1079
2786.62	1072
2791.05	1075
2795.48	1095
2799.91	1074
2804.33	1087
2808.76	1073
2813.18	1072
2817.59	1081
2822.01	1083
2826.42	1073
2830.83	1102
2835.24	1109
2839.64	1135
2844.05	1154
2848.45	1164
2852.84	1180
2857.24	1205
2861.63	1172
2866.02	1175
2870.41	1163
2874.8	1167
2879.18	1182
2883.56	1193
2887.94	1239
2892.31	1219
2896.68	1234
2901.05	1264
2905.42	1281
2909.79	1262
2914.15	1226
2918.51	1200
2922.87	1174
2927.22	1162
2931.58	1122
2935.93	1136
2940.28	1118
2944.62	1113
2948.96	1095
2953.3	1097
2957.64	1092
2961.98	1079
2966.31	1106
2970.64	1073
2974.97	1067
2979.3	1073
2983.62	1085
2987.94	1073
2992.26	1056
2996.58	1056
3000.89	1080
3005.2	1067
3009.51	1069
3013.82	1078
3018.12	1067
3022.43	1064
3026.72	1063
3031.02	1082
3035.32	1066
3039.61	1081
3043.9	1091
3048.19	1099
3052.47	1122
3056.75	1141
3061.03	1157
3065.31	1173
3069.59	1183
3073.86	1175
3078.13	1177
3082.4	1174
3086.66	1169
3090.93	1122
3095.19	1129
3099.45	1085
3103.7	1080
3107.96	1063
3112.21	1024
3116.46	1016
3120.7	1027
3124.95	986
3129.19	1009
3133.43	986
3137.67	972
3141.9	967
3146.14	975
3150.37	964
3154.59	963
3158.82	968
3163.04	957
3167.26	954
3171.48	957
3175.7	953
3179.91	942
3184.12	946
3188.33	952
3192.54	942
3196.74	943
3200.95	948
3205.15	938
3209.34	939
3213.54	934
3217.73	941
3221.92	943
3226.11	938
3230.3	953
3234.48	955
3238.66	931
3242.84	956
3247.02	944
3251.19	947
3255.36	941
3259.53	943
3263.7	948
3267.87	927
3272.03	924
3276.19	935
3280.35	923
3284.5	931
3288.66	937
3292.81	926
3296.96	920
3301.1	936
3305.25	916
3309.39	914
3313.53	932
3317.67	915
3321.8	936
3325.94	909
3330.07	909
3334.2	916
3338.32	925
3342.45	928
3346.57	919
3350.69	906
3354.81	936
3358.92	937
3363.03	926
3367.14	921
3371.25	936
3375.36	937
3379.46	927
3383.56	936
3387.66	934
3391.76	930
3395.86	929
3399.95	927
3404.04	927
3408.13	918
3412.21	926
3416.3	933
3420.38	919
3424.46	919
3428.53	935
3432.61	937
3436.68	941
3440.75	936
3444.82	923
3448.88	936
3452.95	932
3457.01	916
3461.07	927
3465.13	922
3469.18	927
3473.23	907
3477.28	928
3481.33	912
3485.38	932
3489.42	924
3493.46	913
3497.5	915
3501.54	917
3505.58	916
3509.61	936
3513.64	924
3517.67	919
3521.69	929
3525.72	921
3529.74	930
3533.76	919
3537.78	923
3541.79	928
3545.8	922
3549.82	910
3553.82	924
3557.83	936
3561.84	927
3565.84	923
3569.84	929
3573.84	927
3577.83	926
3581.83	933
3585.82	930
3589.81	937
3593.79	940
3597.78	934
3601.76	934
3605.74	943
3609.72	944
3613.7	941
3617.67	914
3621.65	945
3625.62	949
3629.58	934
3633.55	944
3637.51	933
3641.47	940
3645.43	933
3649.39	935
3653.35	936
3657.3	942
3661.25	934
3665.2	931
3669.15	924
3673.09	948
3677.03	933
3680.97	930
3684.91	944
3688.85	923
3692.78	923
3696.71	917
3700.64	935
3704.57	917
3708.5	935
3712.42	921
3716.34	915
3720.26	927
3724.18	908
3728.09	935
3732.01	935
3735.92	919
3739.83	925
3743.73	914
3747.64	919
3751.54	928
3755.44	926
3759.34	916
3763.24	930
3767.13	916
3771.02	932
3774.91	928
3778.8	935
3782.69	917
3784.63	920